Folder: Property-studies-of-catalytic-substrate-for-grain-size-optimization-FYP/Result/Raw data/XRD_550C_raw

Note: README.md
# Property-studies-of-catalytic-substrate-for-graphene-growth-FYP-
Under graduate level final year project: Study on properties of catalytic substrate for graphene deposition and determining the optimum parameters for best graphene growth.

File: SAMPLE_5_COPPER_1HOUR_550C.XRDML striped k alpha 2.xy
5.0150 1654.5
5.2700 1561.5
5.5250 1479.1
5.7800 1434.3
6.0350 1418.1
6.2900 1352.4
6.5450 1312.5
6.8000 1261.8
7.0550 1215.6
7.3100 1172.9
7.5650 1145.8
7.8200 1099.9
8.0750 1075.6
8.3300 1043.1
8.5850 1034.6
8.8400 1021.8
9.0950 1002.1
9.3500 973.4
9.6050 934.9
9.8600 946.9
10.1150 935.8
10.3700 940.1
10.6250 935.3
10.8800 922.4
11.1350 940.5
11.3900 942.2
11.6450 905.1
11.9000 903.3
12.1550 890.2
12.4100 919.6
12.6650 895.8
12.9200 916.6
13.1750 904.2
13.4300 903.0
13.6850 884.7
13.9400 918.5
14.1950 901.6
14.4500 897.9
14.7050 883.9
14.9600 896.9
15.2150 918.2
15.4700 890.2
15.7250 918.9
15.9800 923.6
16.2350 917.1
16.4900 896.8
16.7450 929.8
17.0000 925.5
17.2550 954.8
17.5100 937.1
17.7650 913.9
18.0200 941.1
18.2750 962.4
18.5300 968.9
18.7850 946.1
19.0400 965.9
19.2950 977.5
19.5500 980.6
19.8050 953.0
20.0600 969.8
20.3150 1038.5
20.5700 1002.2
20.8250 1017.2
21.0800 1002.9
21.3350 997.2
21.5900 1015.5
21.8450 1014.0
22.1000 1017.5
22.3550 1049.2
22.6100 1047.6
22.8650 1046.0
23.1200 1084.9
23.3750 1063.6
23.6300 1105.9
23.8850 1064.3
24.1400 1081.2
24.3950 1115.4
24.6500 1118.4
24.9050 1104.4
25.1600 1134.2
25.4150 1127.1
25.6700 1151.5
25.9250 1157.9
26.1800 1131.9
26.4350 1146.4
26.6900 1155.6
26.9450 1156.8
27.2000 1178.5
27.4550 1206.1
27.7100 1185.8
27.9650 1205.9
28.2200 1194.7
28.4750 1174.4
28.7300 1191.6
28.9850 1183.6
29.2400 1240.2
29.4950 1207.3
29.7500 1241.9
30.0050 1283.6
30.2600 1232.9
30.5150 1290.7
30.7700 1248.6
31.0250 1253.6
31.2800 1256.8
31.5350 1206.1
31.7900 1209.1
32.0450 1245.6
32.3000 1269.4
32.5550 1247.2
32.8100 1260.5
33.0650 1266.5
33.3200 1304.8
33.5750 1267.9
33.8300 1328.4
34.0850 1320.8
34.3400 1363.1
34.5950 1360.5
34.8500 1292.6
35.1050 1341.5
35.3600 1305.6
35.6150 1335.4
35.8700 1361.9
36.1250 1353.5
36.3800 1340.6
36.6350 1369.5
36.8900 1357.4
37.1450 1394.5
37.4000 1356.2
37.6550 1381.1
37.9100 1405.4
38.1650 1408.4
38.4200 1427.2
38.6750 1411.2
38.9300 1442.6
39.1850 1470.8
39.4400 1438.5
39.6950 1418.6
39.9500 1446.1
40.2050 1450.4
40.4600 1454.9
40.7150 1453.7
40.9700 1448.7
41.2250 1469.5
41.4800 1494.0
41.7350 1504.5
41.9900 1508.1
42.2450 1541.8
42.5000 1501.1
42.7550 1541.7
43.0100 1844.6
43.2650 20925.3
43.5200 1706.2
43.7750 1603.5
44.0300 1545.8
44.2850 1594.2
44.5400 1543.9
44.7950 1559.7
45.0500 1531.2
45.3050 1637.8
45.5600 1550.9
45.8150 1529.1
46.0700 1521.6
46.3250 1567.0
46.5800 1573.6
46.8350 1525.1
47.0900 1516.0
47.3450 1478.5
47.6000 1548.5
47.8550 1507.1
48.1100 1537.1
48.3650 1499.1
48.6200 1661.4
48.8750 1557.2
49.1300 1590.9
49.3850 1620.6
49.6400 1655.2
49.8950 1703.3
50.1500 2619.5
50.4050 58012.0
50.6600 2725.6
50.9150 1810.3
51.1700 1602.2
51.4250 1611.0
51.6800 1563.1
51.9350 1562.6
52.1900 1550.2
52.4450 1564.9
52.7000 1569.2
52.9550 1547.6
53.2100 1517.9
53.4650 1505.9
53.7200 1558.0
53.9750 1544.1
54.2300 1512.5
54.4850 1529.8
54.7400 1576.9
54.9950 1563.7
55.2500 1512.5
55.5050 1547.5
55.7600 1531.6
56.0150 1458.6
56.2700 1520.8
56.5250 1503.4
56.7800 1518.2
57.0350 1519.9
57.2900 1509.0
57.5450 1506.8
57.8000 1503.6
58.0550 1499.4
58.3100 1534.6
58.5650 1523.6
58.8200 1543.9
59.0750 1494.9
59.3300 1527.6
59.5850 1504.9
59.8400 1525.8
60.0950 1505.6
60.3500 1486.0
60.6050 1529.9
60.8600 1516.9
61.1150 1516.5
61.3700 1526.8
61.6250 1485.4
61.8800 1522.4
62.1350 1483.0
62.3900 1509.2
62.6450 1518.3
62.9000 1481.2
63.1550 1491.9
63.4100 1513.7
63.6650 1533.2
63.9200 1505.9
64.1750 1548.5
64.4300 1518.5
64.6850 1511.2
64.9400 1533.1
65.1950 1485.3
65.4500 1514.2
65.7050 1506.6
65.9600 1546.3
66.2150 1488.4
66.4700 1530.1
66.7250 1533.1
66.9800 1528.3
67.2350 1538.0
67.4900 1524.9
67.7450 1548.5
68.0000 1496.8
68.2550 1510.4
68.5100 1527.9
68.7650 1496.3
69.0200 1514.8
69.2750 1523.7
69.5300 1522.7
69.7850 1485.9
70.0400 1526.4
70.2950 1548.8
70.5500 1506.6
70.8050 1533.2
71.0600 1552.5
71.3150 1571.9
71.5700 1552.4
71.8250 1554.8
72.0800 1601.4
72.3350 1548.8
72.5900 1629.7
72.8450 1576.2
73.1000 1567.9
73.3550 1595.1
73.6100 1739.3
73.8650 2282.8
74.1200 11690.1
74.3750 1927.1
74.6300 1684.8
74.8850 1708.6
75.1400 1614.2
75.3950 1681.2
75.6500 1575.5
75.9050 1543.8
76.1600 1574.1
76.4150 1601.0
76.6700 1572.1
76.9250 1577.2
77.1800 1565.3
77.4350 1554.5
77.6900 1595.4
77.9450 1563.9
78.2000 1565.4
78.4550 1531.5
78.7100 1548.8
78.9650 1548.4
79.2200 1591.2
79.4750 1567.3
79.7300 1591.4
79.9680 1569.5